"rt","stimulus","button_pressed","trial_type","trial_index","time_elapsed","internal_node_id","key_press","tap_times"
"9530","<p style=""font-size:30px;"">Hi!</p><br><p>In this experiment, you will hear sounds with different speeds. </p><p>Your task is to listen to the pair of sounds, and then tap on the T key</p><p>with a speed that you think is the midway between these two speeds.<br><br><br></p>","0","html-button-response","0","9535","0.0-0.0","",""
"null","700_ms.wav","","audio-keyboard-response","1","15097","0.0-1.0-0.0","null",""
"null","600_ms.wav","","audio-keyboard-response","2","20808","0.0-1.0-1.0","null",""
"","silence.wav","","audio-keyboard-taps","3","37415","0.0-1.0-2.0","null","3013,3552,4112,4744,5328,5912,6512,7136,7744,8392,8976,9600,10232,10808,11440,12056,12680,13280,13872,14464,15104"
"null","<p> you can stop tapping </p>","","html-keyboard-response-ITI","4","38718","0.0-1.0-3.0","null",""
"null","500_ms.wav","","audio-keyboard-response","5","42728","0.0-1.0-0.1","null",""
"null","700_ms.wav","","audio-keyboard-response","6","49141","0.0-1.0-1.1","null",""
"","silence.wav","","audio-keyboard-taps","7","68608","0.0-1.0-2.1","null","6637,7269,7965,8597,9157,9677,10213,10781,11349,11883,12429,12981,13525,14077,14677,15221,15765,16325,16875,17405,17965"
"null","<p> you can stop tapping </p>","","html-keyboard-response-ITI","8","69911","0.0-1.0-3.1","null",""
"null","400_ms.wav","","audio-keyboard-response","9","73221","0.0-1.0-0.2","null",""
"null","600_ms.wav","","audio-keyboard-response","10","78933","0.0-1.0-1.2","null",""
"","silence.wav","","audio-keyboard-taps","11","91993","0.0-1.0-2.2","null","1821,2325,2749,3229,3717,4221,4701,5181,5653,6165,6677,7165,7645,8117,8597,9101,9589,10069,10589,11077,11557"
"null","<p> you can stop tapping </p>","","html-keyboard-response-ITI","12","93296","0.0-1.0-3.2","null",""
"null","400_ms.wav","","audio-keyboard-response","13","96607","0.0-1.0-0.3","null",""
"null","500_ms.wav","","audio-keyboard-response","14","101620","0.0-1.0-1.3","null",""
"","silence.wav","","audio-keyboard-taps","15","115039","0.0-1.0-2.3","null","1797,2261,2757,3261,3765,4269,4773,5285,5789,6301,6837,7333,7853,8365,8869,9397,9909,10397,10933,11421,11917"
"null","<p> you can stop tapping </p>","","html-keyboard-response-ITI","16","116340","0.0-1.0-3.3","null",""
"null","500_ms.wav","","audio-keyboard-response","17","120352","0.0-1.0-0.4","null",""
"null","600_ms.wav","","audio-keyboard-response","18","126063","0.0-1.0-1.4","null",""
"","silence.wav","","audio-keyboard-taps","19","140239","0.0-1.0-2.4","null","2192,2736,3216,3744,4251,4792,5344,5880,6416,6944,7480,8027,8555,9067,9576,10099,10603,11123,11664,12171,12675"
"null","<p> you can stop tapping </p>","","html-keyboard-response-ITI","20","141541","0.0-1.0-3.4","null",""
"null","400_ms.wav","","audio-keyboard-response","21","144852","0.0-1.0-0.5","null",""
"null","800_ms.wav","","audio-keyboard-response","22","151964","0.0-1.0-1.5","null",""
"","silence.wav","","audio-keyboard-taps","23","166072","0.0-1.0-2.5","null","1117,1693,2333,2941,3525,4069,4669,5229,5805,6349,6917,7477,8037,8589,9197,9757,10325,10901,11469,12029,12605"
"null","<p> you can stop tapping </p>","","html-keyboard-response-ITI","24","167374","0.0-1.0-3.5","null",""
"null","800_ms.wav","","audio-keyboard-response","25","173484","0.0-1.0-0.6","null",""
"null","500_ms.wav","","audio-keyboard-response","26","178497","0.0-1.0-1.6","null",""
"","silence.wav","","audio-keyboard-taps","27","192728","0.0-1.0-2.6","null","1227,1811,2483,3075,3659,4267,4867,5467,6011,6579,7139,7699,8275,8811,9363,9891,10475,11019,11603,12171,12731"
"null","<p> you can stop tapping </p>","","html-keyboard-response-ITI","28","194031","0.0-1.0-3.6","null",""
"null","500_ms.wav","","audio-keyboard-response","29","198044","0.0-1.0-0.7","null",""
"null","800_ms.wav","","audio-keyboard-response","30","205156","0.0-1.0-1.7","null",""
"","silence.wav","","audio-keyboard-taps","31","218673","0.0-1.0-2.7","null","904,1501,2013,2509,3053,3573,4149,4701,5301,5805,6373,6909,7461,8309,8741,9301,9821,10365,10925,11485,12016"
"null","<p> you can stop tapping </p>","","html-keyboard-response-ITI","32","219975","0.0-1.0-3.7","null",""
"null","400_ms.wav","","audio-keyboard-response","33","223286","0.0-1.0-0.8","null",""
"null","700_ms.wav","","audio-keyboard-response","34","229700","0.0-1.0-1.8","null",""
"","silence.wav","","audio-keyboard-taps","35","242282","0.0-1.0-2.8","null","1600,2120,2648,3080,3552,4048,4544,5008,5464,5936,6424,6904,7368,7832,8304,8784,9224,9680,10168,10608,11080"
"null","<p> you can stop tapping </p>","","html-keyboard-response-ITI","36","243583","0.0-1.0-3.8","null",""
"null","600_ms.wav","","audio-keyboard-response","37","248294","0.0-1.0-0.9","null",""
"null","500_ms.wav","","audio-keyboard-response","38","253307","0.0-1.0-1.9","null",""
"","silence.wav","","audio-keyboard-taps","39","267162","0.0-1.0-2.9","null","1088,1648,2184,2760,3352,3904,4480,5040,5632,6184,6728,7320,7896,8440,9016,9555,10096,10632,11224,11776,12352"
"null","<p> you can stop tapping </p>","","html-keyboard-response-ITI","40","268464","0.0-1.0-3.9","null",""
"null","600_ms.wav","","audio-keyboard-response","41","273176","0.0-1.0-0.10","null",""
"null","400_ms.wav","","audio-keyboard-response","42","277488","0.0-1.0-1.10","null",""
"","silence.wav","","audio-keyboard-taps","43","290274","0.0-1.0-2.10","null","557,1069,1637,2125,2685,3197,3749,4285,4845,5397,5917,6469,6997,7493,8045,8565,9125,9653,10192,10725,11285"
"null","<p> you can stop tapping </p>","","html-keyboard-response-ITI","44","291576","0.0-1.0-3.10","null",""
"null","600_ms.wav","","audio-keyboard-response","45","296286","0.0-1.0-0.11","null",""
"null","700_ms.wav","","audio-keyboard-response","46","302699","0.0-1.0-1.11","null",""
"","silence.wav","","audio-keyboard-taps","47","317251","0.0-1.0-2.11","null","1131,1763,2283,2867,3451,4075,4699,5355,5955,6547,7147,7747,8347,8899,9491,10083,10731,11331,11923,12475,13051"
"null","<p> you can stop tapping </p>","","html-keyboard-response-ITI","48","318554","0.0-1.0-3.11","null",""
"null","600_ms.wav","","audio-keyboard-response","49","323264","0.0-1.0-0.12","null",""
"null","800_ms.wav","","audio-keyboard-response","50","330376","0.0-1.0-1.12","null",""
"","silence.wav","","audio-keyboard-taps","51","344676","0.0-1.0-2.12","null","1053,1565,2133,2709,3293,3893,4461,5077,5621,6245,6845,7405,7989,8589,9205,9789,10389,11005,11597,12221,12797"
"null","<p> you can stop tapping </p>","","html-keyboard-response-ITI","52","345978","0.0-1.0-3.12","null",""
"null","800_ms.wav","","audio-keyboard-response","53","352090","0.0-1.0-0.13","null",""
"null","700_ms.wav","","audio-keyboard-response","54","358504","0.0-1.0-1.13","null",""
"","silence.wav","","audio-keyboard-taps","55","376876","0.0-1.0-2.13","null","829,1541,2341,3133,3973,4821,5541,6357,7197,8069,8877,9669,10477,11269,12093,12909,13685,14493,15269,16077,16869"
"null","<p> you can stop tapping </p>","","html-keyboard-response-ITI","56","378180","0.0-1.0-3.13","null",""
"null","700_ms.wav","","audio-keyboard-response","57","383591","0.0-1.0-0.14","null",""
"null","500_ms.wav","","audio-keyboard-response","58","388605","0.0-1.0-1.14","null",""
"","silence.wav","","audio-keyboard-taps","59","403141","0.0-1.0-2.14","null","939,1627,2235,2819,3459,4040,4651,5275,5899,6491,7083,7691,8291,8891,9499,10091,10683,11275,11867,12459,13035"
"null","<p> you can stop tapping </p>","","html-keyboard-response-ITI","60","404443","0.0-1.0-3.14","null",""
"null","800_ms.wav","","audio-keyboard-response","61","410554","0.0-1.0-0.15","null",""
"null","600_ms.wav","","audio-keyboard-response","62","416263","0.0-1.0-1.15","null",""
"","silence.wav","","audio-keyboard-taps","63","429342","0.0-1.0-2.15","null","1520,2016,2592,3080,3608,4128,4600,5096,5600,6096,6576,7096,7608,8088,8592,9096,9592,10104,10640,11104,11576"
"null","<p> you can stop tapping </p>","","html-keyboard-response-ITI","64","430644","0.0-1.0-3.15","null",""
"null","700_ms.wav","","audio-keyboard-response","65","436057","0.0-1.0-0.16","null",""
"null","400_ms.wav","","audio-keyboard-response","66","440369","0.0-1.0-1.16","null",""
"","silence.wav","","audio-keyboard-taps","67","455526","0.0-1.0-2.16","null","1325,1877,2541,3101,3733,4365,4989,5637,6253,6877,7509,8133,8757,9373,10005,10613,11269,11861,12469,13061,13653"
"null","<p> you can stop tapping </p>","","html-keyboard-response-ITI","68","456829","0.0-1.0-3.16","null",""
"null","700_ms.wav","","audio-keyboard-response","69","462241","0.0-1.0-0.17","null",""
"null","800_ms.wav","","audio-keyboard-response","70","469350","0.0-1.0-1.17","null",""
"","silence.wav","","audio-keyboard-taps","71","484255","0.0-1.0-2.17","null","1011,1691,2323,2907,3507,4107,4707,5315,5963,6563,7187,7819,8451,9067,9683,10275,10875,11531,12187,12763,13403"
"null","<p> you can stop tapping </p>","","html-keyboard-response-ITI","72","485557","0.0-1.0-3.17","null",""
"null","500_ms.wav","","audio-keyboard-response","73","489569","0.0-1.0-0.18","null",""
"null","400_ms.wav","","audio-keyboard-response","74","493881","0.0-1.0-1.18","null",""
"","silence.wav","","audio-keyboard-taps","75","507223","0.0-1.0-2.18","null","1320,1944,2520,3040,3536,4056,4560,5072,5608,6112,6632,7128,7656,8160,8672,9184,9696,10224,10784,11304,11840"
"null","<p> you can stop tapping </p>","","html-keyboard-response-ITI","76","508526","0.0-1.0-3.18","null",""
"null","800_ms.wav","","audio-keyboard-response","77","514638","0.0-1.0-0.19","null",""
"null","400_ms.wav","","audio-keyboard-response","78","518950","0.0-1.0-1.19","null",""
"","silence.wav","","audio-keyboard-taps","79","534152","0.0-1.0-2.19","null","3179,3763,4355,4907,5419,5931,6411,6923,7419,7931,8427,8947,9499,9995,10531,11083,11611,12131,12707,13211,13699"
"null","<p> you can stop tapping </p>","","html-keyboard-response-ITI","80","535454","0.0-1.0-3.19","null",""
"4035.0000000001164","<p style=""font-size:30px;"">Thank you!</p><p>You have completed the experiment.</p><p>Click &#39continue&#39 to close the experiment and proceed to Prolific.</p>","0","html-button-response","81","539991","0.0-2.0","",""
